{
  "resourceType": "Bundle",
  "id": "tests-numer-EXM130-bundle",
  "type": "transaction",
  "entry": [ {
    "resource": {
      "resourceType": "Procedure",
      "id": "numer-EXM130-1",
      "meta": {
        "profile": [ "http://hl7.org/fhir/us/core/StructureDefinition/us-core-procedure" ]
      },
      "status": "completed",
      "code": {
        "coding": [ {
          "system": "http://www.ama-assn.org/go/cpt",
          "code": "44388",
          "display": "Colonoscopy through stoma; with ablation of tumor(s), polyp(s), or other lesion(s) not amenable to removal by hot biopsy forceps, bipolar cautery or snare technique"
        } ]
      },
      "subject": {
        "reference": "Patient/numer-EXM130"
      },
      "performedPeriod": {
        "start": "2015-01-01T00:00:00-06:00",
        "end": "2015-01-01T01:00:00-07:00"
      }
    },
    "request": {
      "method": "PUT",
      "url": "Procedure/numer-EXM130-1"
    }
  }, {
    "resource": {
      "resourceType": "Encounter",
      "id": "numer-EXM130-4",
      "meta": {
        "profile": [ "http://hl7.org/fhir/us/core/StructureDefinition/us-core-encounter" ]
      },
      "status": "finished",
      "class": {
        "system": "http://terminology.hl7.org/CodeSystem/v3-ActCode",
        "code": "AMB",
        "display": "ambulatory"
      },
      "type": [ {
        "coding": [ {
          "system": "http://www.ama-assn.org/go/cpt",
          "code": "99201",
          "display": "Office or other outpatient visit for the evaluation and management of a new patient, which requires these 3 key components: A problem focused history; A problem focused examination; Straightforward medical decision making. Counseling and/or coordination of care with other physicians, other qualified health care professionals, or agencies are provided consistent with the nature of the problem(s) and the patient's and/or family's needs. Usually, the presenting problem(s) are self limited or minor. Typically, 10 minutes are spent face-to-face with the patient and/or family."
        } ]
      } ],
      "subject": {
        "reference": "Patient/numer-EXM130"
      },
      "period": {
        "start": "2022-05-30T00:00:00.0",
        "end": "2022-05-31T00:00:00.0"
      }
    },
    "request": {
      "method": "PUT",
      "url": "Encounter/numer-EXM130-4"
    }
  }, {
    "resource": {
      "resourceType": "GuidanceResponse",
      "id": "ccs-cqm-numer-EXM130",
      "contained": [ {
        "resourceType": "Parameters",
        "id": "output",
        "parameter": [ {
          "name": "Initial Population",
          "valueBoolean": true
        }, {
          "name": "Denominator",
          "valueBoolean": true
        }, {
          "name": "Numerator",
          "valueBoolean": true
        }, {
          "name": "Denominator Exclusion",
          "valueBoolean": false
        } ]
      } ],
      "moduleCanonical": "http://fhir.org/guides/cqf/ccc/Library/ColorectalCancerScreeningCQM",
      "status": "success",
      "subject": {
        "reference": "Patient/numer-EXM130"
      },
      "outputParameters": {
        "reference": "#output"
      }
    },
    "request": {
      "method": "PUT",
      "url": "GuidanceResponse/ccs-cqm-numer-EXM130"
    }
  }, {
    "resource": {
      "resourceType": "Patient",
      "id": "numer-EXM130",
      "meta": {
        "profile": [ "http://hl7.org/fhir/us/core/StructureDefinition/us-core-patient" ]
      },
      "extension": [ {
        "url": "http://hl7.org/fhir/us/core/StructureDefinition/us-core-race",
        "extension": [ {
          "url": "ombCategory",
          "valueCoding": {
            "system": "urn:oid:2.16.840.1.113883.6.238",
            "code": "2028-9",
            "display": "Asian"
          }
        } ]
      }, {
        "url": "http://hl7.org/fhir/us/core/StructureDefinition/us-core-ethnicity",
        "extension": [ {
          "url": "ombCategory",
          "valueCoding": {
            "system": "urn:oid:2.16.840.1.113883.6.238",
            "code": "2135-2",
            "display": "Hispanic or Latino"
          }
        } ]
      } ],
      "identifier": [ {
        "use": "usual",
        "type": {
          "coding": [ {
            "system": "http://terminology.hl7.org/CodeSystem/v2-0203",
            "code": "MR",
            "display": "Medical Record Number"
          } ]
        },
        "system": "http://hospital.smarthealthit.org",
        "value": "999999992"
      } ],
      "name": [ {
        "family": "Blitz",
        "given": [ "Don" ]
      } ],
      "gender": "male",
      "birthDate": "1968-01-01"
    },
    "request": {
      "method": "PUT",
      "url": "Patient/numer-EXM130"
    }
  } ]
}