{
  "resourceType": "Bundle",
  "id": "612e6b6b02c62a011f2edaae",
  "type": "collection",
  "entry": [
    {
      "fullUrl": "https://madie.cms.gov/Patient/861fe7f8-9bab-4e23-9b85-419e1aa0b1d8",
      "resource": {
        "resourceType": "Patient",
        "id": "861fe7f8-9bab-4e23-9b85-419e1aa0b1d8",
        "meta": {
          "profile": [
            "http://hl7.org/fhir/us/qicore/StructureDefinition/qicore-patient"
          ]
        },
        "text": {
          "status": "generated",
          "div": "<div xmlns=\"http://www.w3.org/1999/xhtml\"><div class=\"hapiHeaderText\">PrincDxMH <b>DENEXPASS </b></div><table class=\"hapiPropertyTable\"><tbody><tr><td>Identifier</td><td>29c9716eb5f48b54d7b337bf497e0e5e</td></tr><tr><td>Date of birth</td><td><span>01 December 2003</span></td></tr></tbody></table></div>"
        },
        "extension": [
          {
            "url": "http://hl7.org/fhir/us/core/StructureDefinition/us-core-race",
            "extension": [
              {
                "url": "ombCategory",
                "valueCoding": {
                  "system": "urn:oid:2.16.840.1.113883.6.238",
                  "code": "1002-5",
                  "display": "American Indian or Alaska Native",
                  "userSelected": true
                }
              },
              {
                "url": "text",
                "valueString": "American Indian or Alaska Native"
              }
            ]
          },
          {
            "url": "http://hl7.org/fhir/us/core/StructureDefinition/us-core-ethnicity",
            "extension": [
              {
                "url": "ombCategory",
                "valueCoding": {
                  "system": "urn:oid:2.16.840.1.113883.6.238",
                  "code": "2135-2",
                  "display": "Hispanic or Latino",
                  "userSelected": true
                }
              },
              {
                "url": "text",
                "valueString": "Hispanic or Latino"
              }
            ]
          }
        ],
        "identifier": [
          {
            "type": {
              "coding": [
                {
                  "system": "http://terminology.hl7.org/CodeSystem/v2-0203",
                  "code": "MR"
                }
              ]
            },
            "system": "https://bonnie-fhir.healthit.gov/",
            "value": "612e6b6b02c62a011f2edaae"
          }
        ],
        "active": true,
        "name": [
          {
            "use": "usual",
            "family": "DENEXPass",
            "given": [
              "PrincDxMH"
            ]
          }
        ],
        "gender": "male",
        "birthDate": "2004-12-01"
      }
    },
    {
      "fullUrl": "https://madie.cms.gov/Encounter/5ca62962b8484628b8de1eb4",
      "resource": {
        "resourceType": "Encounter",
        "id": "5ca62962b8484628b8de1eb4",
        "meta": {
          "profile": [
            "http://hl7.org/fhir/us/qicore/StructureDefinition/qicore-encounter"
          ]
        },
        "status": "finished",
        "class": {
          "system": "http://terminology.hl7.org/CodeSystem/v3-ActCode",
          "code": "IMP",
          "display": "inpatient encounter"
        },
        "type": [
          {
            "coding": [
              {
                "system": "http://snomed.info/sct",
                "code": "183452005"
              }
            ]
          }
        ],
        "subject": {
          "reference": "Patient/861fe7f8-9bab-4e23-9b85-419e1aa0b1d8"
        },
        "period": {
          "start": "2026-12-01T08:00:00.000+00:00",
          "end": "2026-12-31T23:59:00.000+00:00"
        },
        "length": {
          "value": 30,
          "unit": "days"
        },
        "diagnosis": [
          {
            "condition": {
              "reference": "Condition/mental-health-diagnoses-1c3d"
            },
            "use": {
              "coding": [
                {
                  "system": "http://terminology.hl7.org/CodeSystem/diagnosis-role",
                  "code": "billing"
                }
              ]
            },
            "rank": 1
          }
        ]
      }
    },
    {
      "fullUrl": "https://madie.cms.gov/Coverage/5fa0415c1c76ba66d99592c5",
      "resource": {
        "resourceType": "Coverage",
        "id": "5fa0415c1c76ba66d99592c5",
        "status": "active",
        "beneficiary": {
          "reference": "Patient/861fe7f8-9bab-4e23-9b85-419e1aa0b1d8"
        },
        "period": {
          "start": "2004-12-01T00:00:00+00:00"
        },
        "payor": [
          {
            "reference": "Organization/123456"
          }
        ]
      }
    },
    {
      "fullUrl": "https://madie.cms.gov/Condition/mental-health-diagnoses-1c3d",
      "resource": {
        "resourceType": "Condition",
        "id": "mental-health-diagnoses-1c3d",
        "meta": {
          "profile": [
            "http://hl7.org/fhir/us/qicore/StructureDefinition/qicore-condition"
          ]
        },
        "category": [
          {
            "coding": [
              {
                "system": "http://terminology.hl7.org/CodeSystem/condition-category",
                "code": "encounter-diagnosis",
                "display": "Encounter Diagnosis"
              }
            ]
          }
        ],
        "code": {
          "coding": [
            {
              "system": "http://snomed.info/sct",
              "version": "2025-03",
              "code": "101421000119107",
              "display": "Dementia due to Parkinson's disease (disorder)",
              "userSelected": true
            }
          ]
        },
        "subject": {
          "reference": "Patient/861fe7f8-9bab-4e23-9b85-419e1aa0b1d8"
        },
        "recordedDate": "2026-07-13T08:00:00.000+00:00"
      }
    },
    {
      "fullUrl": "https://madie.cms.gov/Organization/123456",
      "resource": {
        "resourceType": "Organization",
        "id": "123456",
        "meta": {
          "profile": [
            "http://hl7.org/fhir/us/qicore/StructureDefinition/qicore-organization"
          ]
        },
        "identifier": [
          {
            "use": "temp",
            "system": "urn:oid:2.16.840.1.113883.4.4",
            "value": "21-3259825"
          }
        ],
        "active": true,
        "type": [
          {
            "coding": [
              {
                "system": "http://terminology.hl7.org/CodeSystem/organization-type",
                "code": "pay",
                "display": "Payer"
              }
            ]
          }
        ],
        "name": "Blue Cross Blue Shield of Texas",
        "telecom": [
          {
            "system": "phone",
            "value": "(+1) 972-766-6900"
          }
        ],
        "address": [
          {
            "use": "billing",
            "type": "postal",
            "line": [
              "P.O. Box 660044"
            ],
            "city": "Dallas",
            "state": "TX",
            "postalCode": "75266-0044",
            "country": "USA"
          }
        ]
      }
    },
    {
      "fullUrl": "https://madie.cms.gov/Practitioner/practitioner-123456",
      "resource": {
        "resourceType": "Practitioner",
        "id": "practitioner-123456",
        "identifier": [
          {
            "system": "http://hl7.org/fhir/sid/us-npi",
            "value": "123456"
          }
        ],
        "name": [
          {
            "family": "Evil",
            "prefix": [
              "Dr"
            ]
          }
        ]
      }
    }
  ]
}