{
  "resourceType": "Bundle",
  "id": "tests-Organization-bundle",
  "type": "transaction",
  "entry": [ {
    "resource": {
      "resourceType": "Organization",
      "id": "acme-lab",
      "meta": {
        "profile": [ "http://hl7.org/fhir/us/core/StructureDefinition/us-core-organization" ]
      },
      "text": {
        "status": "generated",
        "div": "<div xmlns=\"http://www.w3.org/1999/xhtml\"><p><b>Generated Narrative with Details</b></p><p><b>id</b>: acme-lab</p><p><b>meta</b>: </p><p><b>identifier</b>: 1144221847, 12D4567890</p><p><b>active</b>: true</p><p><b>type</b>: Healthcare Provider <span style=\"background: LightGoldenRodYellow\">(Details : {http://terminology.hl7.org/CodeSystem/organization-type code 'prov' = 'Healthcare Provider', given as 'Healthcare Provider'})</span></p><p><b>name</b>: Acme Labs</p><p><b>telecom</b>: ph: (+1) 734-677-7777, hq@acme.org</p><p><b>address</b>: 3300 Washtenaw Avenue, Suite 227 Amherst MA 01002 USA </p></div>"
      },
      "identifier": [ {
        "system": "http://hl7.org.fhir/sid/us-npi",
        "value": "1144221847"
      }, {
        "system": "urn:oid:2.16.840.1.113883.4.7",
        "value": "12D4567890"
      } ],
      "active": true,
      "type": [ {
        "coding": [ {
          "system": "http://terminology.hl7.org/CodeSystem/organization-type",
          "code": "prov",
          "display": "Healthcare Provider"
        } ]
      } ],
      "name": "Acme Labs",
      "telecom": [ {
        "system": "phone",
        "value": "(+1) 734-677-7777"
      }, {
        "system": "email",
        "value": "hq@acme.org"
      } ],
      "address": [ {
        "line": [ "3300 Washtenaw Avenue, Suite 227" ],
        "city": "Amherst",
        "state": "MA",
        "postalCode": "01002",
        "country": "USA"
      } ]
    },
    "request": {
      "method": "PUT",
      "url": "Organization/acme-lab"
    }
  }, {
    "resource": {
      "resourceType": "Organization",
      "id": "example-organization-2",
      "meta": {
        "profile": [ "http://hl7.org/fhir/us/core/StructureDefinition/us-core-organization" ]
      },
      "text": {
        "status": "generated",
        "div": "<div xmlns=\"http://www.w3.org/1999/xhtml\"><p><b>Generated Narrative with Details</b></p><p><b>id</b>: example-organization-2</p><p><b>meta</b>: </p><p><b>identifier</b>: 1407071236, 121111111</p><p><b>active</b>: true</p><p><b>type</b>: Healthcare Provider <span style=\"background: LightGoldenRodYellow\">(Details : {http://terminology.hl7.org/CodeSystem/organization-type code 'prov' = 'Healthcare Provider', given as 'Healthcare Provider'})</span></p><p><b>name</b>: Acme Clinic</p><p><b>telecom</b>: ph: (+1) 734-677-7777, customer-service@acme-clinic.org</p><p><b>address</b>: 3300 Washtenaw Avenue, Suite 227 Amherst MA 01002 USA </p></div>"
      },
      "identifier": [ {
        "system": "http://hl7.org.fhir/sid/us-npi",
        "value": "1407071236"
      }, {
        "system": "http://example.org/fhir/sid/us-tin",
        "value": "121111111"
      } ],
      "active": true,
      "type": [ {
        "coding": [ {
          "system": "http://terminology.hl7.org/CodeSystem/organization-type",
          "code": "prov",
          "display": "Healthcare Provider"
        } ]
      } ],
      "name": "Acme Clinic",
      "telecom": [ {
        "system": "phone",
        "value": "(+1) 734-677-7777"
      }, {
        "system": "email",
        "value": "customer-service@acme-clinic.org"
      } ],
      "address": [ {
        "line": [ "3300 Washtenaw Avenue, Suite 227" ],
        "city": "Amherst",
        "state": "MA",
        "postalCode": "01002",
        "country": "USA"
      } ]
    },
    "request": {
      "method": "PUT",
      "url": "Organization/example-organization-2"
    }
  }, {
    "resource": {
      "resourceType": "Organization",
      "id": "example",
      "meta": {
        "profile": [ "http://hl7.org/fhir/us/qicore/StructureDefinition/qicore-organization" ]
      },
      "text": {
        "status": "generated",
        "div": "<div xmlns=\"http://www.w3.org/1999/xhtml\"><p><b>Generated Narrative with Details</b></p><p><b>id</b>: example</p><p><b>meta</b>: </p><p><b>identifier</b>: ??</p><p><b>active</b>: true</p><p><b>type</b>: Organizational team <span style=\"background: LightGoldenRodYellow\">(Details : {http://terminology.hl7.org/CodeSystem/organization-type code 'team' = 'Organizational team', given as 'Organizational team'})</span></p><p><b>name</b>: Health Level Seven International</p><p><b>telecom</b>: ph: (+1) 734-677-7777, fax: (+1) 734-677-6622, hq@HL7.org</p><p><b>address</b>: 3300 Washtenaw Avenue, Suite 227 Ann Arbor MI 48104 USA </p></div>"
      },
      "identifier": [ {
        "system": "http://hl7.org"
      } ],
      "active": true,
      "type": [ {
        "coding": [ {
          "system": "http://terminology.hl7.org/CodeSystem/organization-type",
          "code": "team",
          "display": "Organizational team"
        } ]
      } ],
      "name": "Health Level Seven International",
      "telecom": [ {
        "system": "phone",
        "value": "(+1) 734-677-7777"
      }, {
        "system": "fax",
        "value": "(+1) 734-677-6622"
      }, {
        "system": "email",
        "value": "hq@HL7.org"
      } ],
      "address": [ {
        "line": [ "3300 Washtenaw Avenue, Suite 227" ],
        "city": "Ann Arbor",
        "state": "MI",
        "postalCode": "48104",
        "country": "USA"
      } ]
    },
    "request": {
      "method": "PUT",
      "url": "Organization/example"
    }
  }, {
    "resource": {
      "resourceType": "Organization",
      "id": "saint-luke-w-endpoint",
      "meta": {
        "profile": [ "http://hl7.org/fhir/us/core/StructureDefinition/us-core-organization" ]
      },
      "text": {
        "status": "generated",
        "div": "<div xmlns=\"http://www.w3.org/1999/xhtml\">\n            <h1>Organization</h1>\n            <div>\n                <p>ID: 393872</p>\n                <p>Name: Saint Luke's Hospital of Kansas City </p>\n                <p>NPI: 1063494177</p>\n                <p>Phone:(816)932-2000</p>\n                <p>Address:4401 Wornall Rd,, MO, 64111</p>\n            </div>\n        </div>"
      },
      "contained": [ {
        "resourceType": "Endpoint",
        "id": "75",
        "status": "active",
        "connectionType": {
          "system": "http://terminology.hl7.org/CodeSystem/endpoint-connection-type",
          "code": "direct-project"
        },
        "name": "Dr. Ronald Bone Direct Address",
        "managingOrganization": {
          "reference": "Organization/example-organization-2"
        },
        "payloadType": [ {
          "coding": [ {
            "system": "urn:oid:1.3.6.1.4.1.19376.1.2.3",
            "code": "urn:hl7-org:sdwg:ccda-structuredBody:1.1"
          } ]
        } ],
        "payloadMimeType": [ "text/xml" ],
        "address": "mailto:Interoperability@DirectAddress.com"
      } ],
      "identifier": [ {
        "system": "http://example.org/fhir/sid/us-npi",
        "value": "1063494177"
      }, {
        "system": "http://example.org/fhir/us/argo/sid/us-ein",
        "value": "00-0000000"
      } ],
      "active": true,
      "name": "Saint Luke's Hospital of Kansas City",
      "telecom": [ {
        "system": "phone",
        "value": "(816)932-2000",
        "use": "work"
      }, {
        "system": "other",
        "value": "http://www.saintlukeshealthsystem.org/locations/saint-lukes-hospital-kansas-city",
        "use": "work"
      } ],
      "address": [ {
        "text": "3300 Washtenaw Avenue, Suite 227 Amherst MA 01002",
        "line": [ "4401 Wornall Rd," ],
        "city": "Amherst",
        "state": "MA",
        "postalCode": "64111"
      } ],
      "endpoint": [ {
        "reference": "#75"
      } ]
    },
    "request": {
      "method": "PUT",
      "url": "Organization/saint-luke-w-endpoint"
    }
  } ]
}